File: data/GraphiteAnode_SolventFree_12072023.asc
*TYPE		=  Raw
*CLASS		=  ASCII CLASS
*SAMPLE		=  powder
*COMMENT	=
*FNAME		=  GraphiteAnode_SolventFree_12072023_Theta_2-Theta.asc
*DATE		=  07-Dec-23 18:54

*GROUP_COUNT	=  1
*GONIO		=  MiniFlex 300/600, 150
*ATTACHMENT	=  ASC-6
*ASC		=  0, 0, 0.000000, 0.000000
*FILTER		=  None
*C_MONOCHRO	=  Bent, 0.000000
*SLIT_NAME	=  0, IHS
*SLIT_NAME	=  1, DS
*SLIT_NAME	=  2, SS
*SLIT_NAME	=  3, RS
*COUNTER	=  SC-70, 0
*POS_FORMAT	=  0
*SCAN_AXIS	=  2theta/theta
*MEAS_MODE	=  Continuous Scanning
*TARGET		=  29
*XRAY_CHAR	=  K-ALPHA
*WAVE_LENGTH1	=  1.54059
*WAVE_LENGTH2	=  1.54441
*THICKNESS	=  0, 0.000000
*MU		=  0, 0.000000
*SCAN_MODE	=  2theta/theta
*SPEED_DIM	=  sec./step
*XUNIT		=  deg.
*YUNIT		=  counts
*SCALE_MODE	=  1
*REP_COUNT	=  0
*SE_COUNT	=  0
*STD_MATERIAL	=  Unknown, Unknown, 0.000000, 0.000000, 0.000000, 0.000000, 0.000000, 0.000000
*LATT_CONS	=  0, Unknown, Unknown, 0.000000, 0.000000, 0.000000, 0.000000, 0.000000, 0.000000
*SEC_COUNT	=  1
*TSPEC_SIZE	=  0
*EXTRA_SIZE	=  0
*MEMO		=

*BEGIN
*GROUP		=  0
*START		=  20
*STOP		=  120
*STEP		=  0.01
*OFFSET		=  0.000000
*SPEED		=  1.2
*SLIT_SPEC	=  0, 10.0mm, 10, 0.000000
*SLIT_SPEC	=  1, 1.250deg, 1.25, 0.000000
*SLIT_SPEC	=  2, 1.250deg, 1.25, 0.000000
*SLIT_SPEC	=  3, 0.3mm, 0.3, 0.000000
*KV		=  40
*MA		=  15
*LOW		=  0.000000
*HIGH		=  0.000000
*CTEMPER	=  0, 0.000000
*CTEMPER	=  1, 0.000000
*CTEMPER	=  2, 0.000000
*PAREX		=  0, 0.000000
*PAREX		=  1, 0.000000
*PAREX		=  2, 0.000000
*PAREX		=  3, 0.000000
*PAREX		=  4, 0.000000
*PAREX		=  5, 0.000000
*PAREX		=  6, 0.000000
*PAREX		=  7, 0.000000
*PAREX		=  8, 0.000000
*PAREX		=  9, 0.000000
*PAREX		=  10, 0.000000
*PAREX		=  11, 0.000000
*PAREX		=  12, 0.000000
*PAREX		=  13, 0.000000
*PAREX		=  14, 0.000000
*PAREX		=  15, 0.000000
*FULL_SCALE	=  30022
*INDEX		=  0, 0, 0
*COUNT		=  10001
165, 187, 159, 160
153, 167, 159, 175
134, 143, 168, 150
166, 139, 157, 137
157, 137, 161, 144
130, 139, 151, 144
138, 164, 145, 141
156, 144, 151, 138
134, 150, 136, 161
130, 117, 151, 145
155, 144, 123, 140
126, 132, 143, 140
136, 118, 138, 120
131, 123, 162, 152
124, 135, 137, 145
146, 145, 121, 142
137, 134, 138, 122
133, 148, 145, 128
113, 148, 133, 127
149, 135, 128, 140
136, 148, 121, 135
121, 138, 116, 119
115, 120, 144, 137
133, 141, 130, 137
128, 138, 158, 148
138, 140, 134, 153
129, 135, 129, 159
133, 144, 141, 136
131, 142, 161, 145
123, 142, 132, 133
130, 129, 143, 160
127, 119, 144, 167
147, 144, 143, 134
130, 149, 151, 133
143, 152, 138, 129
160, 141, 156, 165
168, 148, 155, 168
169, 170, 162, 154
159, 147, 158, 145
161, 154, 164, 156
182, 173, 174, 179
171, 160, 165, 195
187, 167, 144, 178
167, 159, 166, 159
183, 160, 168, 139
162, 174, 136, 180
179, 175, 171, 190
166, 178, 187, 177
171, 198, 178, 180
186, 156, 205, 189
182, 193, 186, 222
210, 196, 207, 188
187, 177, 189, 198
228, 227, 184, 209
206, 210, 200, 237
193, 213, 201, 220
202, 241, 248, 213
216, 203, 205, 234
219, 228, 202, 225
236, 232, 219, 225
222, 260, 250, 220
238, 234, 250, 210
256, 246, 274, 274
243, 262, 254, 293
270, 261, 276, 272
303, 261, 259, 273
300, 297, 295, 301
282, 303, 326, 285
327, 306, 344, 322
349, 346, 368, 390
356, 404, 401, 396
421, 396, 432, 453
477, 485, 447, 480
561, 552, 599, 585
748, 725, 759, 738
887, 961, 1000, 1071
1345, 1418, 1454, 1648
2065, 2241, 2386, 2613
3560, 4054, 4319, 4649
7083, 7730, 8417, 9247
13895, 14808, 16211, 17215
23148, 24134, 25360, 26235
29785, 30022, 29950, 29997
23756, 21623, 19689, 17560
8829, 7612, 6457, 5677
3068, 2833, 2583, 2408
1780, 1648, 1573, 1510
1196, 1169, 1114, 1044
804, 840, 696, 691
628, 585, 520, 587
482, 456, 434, 462
410, 375, 399, 338
375, 364, 319, 338
282, 315, 273, 274
270, 234, 267, 237
253, 241, 242, 220
223, 219, 207, 204
192, 217, 208, 199
210, 189, 199, 199
174, 187, 177, 164
189, 181, 155, 157
164, 147, 147, 150
155, 153, 139, 145
149, 130, 142, 158
157, 125, 120, 127
142, 130, 142, 131
140, 137, 142, 133
116, 148, 132, 121
125, 131, 127, 122
111, 124, 109, 121
113, 110, 116, 114
120, 118, 116, 110
102, 99, 115, 103
123, 93, 118, 121
99, 114, 105, 122
86, 95, 110, 98
110, 93, 111, 101
109, 114, 100, 104
96, 111, 90, 127
102, 93, 110, 91
103, 97, 84, 101
99, 99, 93, 87
89, 85, 90, 102
108, 102, 90, 96
105, 112, 104, 81
95, 91, 88, 85
87, 102, 96, 95
93, 106, 111, 74
106, 91, 101, 89
101, 105, 97, 83
100, 86, 105, 81
112, 99, 96, 96
89, 98, 87, 86
84, 79, 101, 77
84, 92, 95, 88
98, 101, 90, 118
84, 93, 98, 94
77, 78, 94, 94
81, 72, 90, 82
101, 94, 85, 100
81, 70, 88, 88
89, 86, 105, 92
88, 95, 85, 99
95, 83, 91, 85
94, 94, 93, 91
73, 63, 85, 76
85, 80, 74, 89
71, 84, 90, 84
78, 85, 87, 83
78, 65, 84, 72
82, 85, 69, 89
99, 77, 87, 103
109, 71, 76, 95
75, 108, 75, 84
85, 86, 75, 87
71, 72, 83, 63
87, 97, 71, 81
98, 82, 80, 82
73, 96, 85, 79
94, 93, 97, 79
86, 81, 92, 92
79, 82, 76, 81
64, 78, 77, 87
79, 74, 89, 96
76, 89, 95, 72
85, 89, 82, 88
69, 80, 78, 84
77, 83, 82, 75
72, 71, 90, 76
92, 95, 73, 95
84, 73, 67, 99
62, 96, 67, 79
76, 79, 62, 97
84, 86, 85, 82
85, 107, 88, 78
84, 76, 78, 79
97, 76, 85, 63
85, 67, 109, 76
83, 72, 90, 66
80, 94, 80, 95
77, 93, 78, 97
87, 93, 99, 80
87, 82, 78, 93
65, 77, 86, 78
81, 79, 81, 89
95, 95, 91, 89
102, 77, 76, 68
71, 72, 69, 67
67, 78, 90, 66
80, 79, 85, 72
84, 84, 59, 77
79, 83, 89, 92
86, 91, 81, 84
102, 85, 90, 71
91, 89, 80, 85
97, 91, 86, 90
76, 75, 82, 79
91, 83, 81, 80
93, 74, 83, 83
100, 93, 75, 94
106, 68, 63, 92
80, 88, 83, 94
83, 89, 72, 104
88, 75, 92, 82
83, 82, 85, 98
81, 76, 78, 82
97, 79, 92, 75
86, 98, 89, 84
80, 81, 89, 74
91, 85, 93, 71
86, 94, 85, 109
81, 77, 107, 71
79, 77, 84, 83
81, 84, 83, 62
84, 85, 80, 72
62, 86, 75, 83
95, 96, 67, 81
73, 93, 96, 98
71, 95, 87, 97
87, 83, 87, 90
80, 91, 108, 90
87, 88, 81, 104
78, 88, 76, 76
79, 86, 95, 85
78, 89, 77, 107
79, 85, 87, 109
71, 93, 107, 90
113, 82, 75, 76
92, 101, 94, 85
87, 96, 100, 89
107, 93, 90, 77
108, 88, 93, 114
83, 109, 112, 85
99, 89, 82, 81
88, 97, 82, 80
92, 94, 100, 97
78, 72, 102, 89
102, 98, 82, 90
74, 93, 84, 82
84, 99, 100, 99
100, 92, 83, 92
86, 107, 87, 88
104, 73, 98, 94
103, 78, 81, 65
87, 97, 92, 95
104, 88, 95, 83
80, 97, 97, 89
77, 88, 95, 83
84, 99, 93, 83
103, 90, 93, 94
97, 83, 79, 87
96, 95, 89, 95
96, 88, 102, 78
103, 84, 114, 87
78, 97, 91, 80
91, 93, 90, 105
104, 95, 101, 97
101, 87, 92, 92
83, 97, 110, 91
91, 103, 115, 95
85, 81, 105, 90
77, 91, 93, 96
94, 99, 84, 95
109, 116, 111, 109
110, 112, 89, 91
99, 96, 94, 105
95, 102, 96, 100
101, 97, 100, 89
97, 106, 93, 76
90, 96, 102, 101
93, 98, 89, 99
93, 112, 105, 98
98, 99, 86, 92
108, 103, 98, 107
93, 104, 106, 101
125, 113, 115, 122
118, 126, 112, 141
127, 161, 154, 152
189, 230, 243, 252
332, 345, 371, 373
439, 396, 397, 444
387, 319, 337, 340
296, 253, 267, 276
227, 235, 222, 231
228, 203, 235, 201
206, 201, 208, 185
218, 210, 248, 224
190, 234, 244, 253
231, 219, 245, 249
252, 263, 262, 286
272, 310, 283, 307
329, 339, 339, 355
372, 334, 387, 363
341, 397, 376, 350
331, 337, 352, 337
372, 342, 342, 376
371, 362, 317, 351
351, 355, 384, 357
347, 352, 333, 360
341, 320, 390, 365
362, 400, 379, 369
379, 426, 394, 405
431, 430, 437, 416
441, 449, 479, 465
516, 499, 533, 565
627, 614, 648, 611
651, 702, 736, 694
682, 681, 703, 722
670, 665, 672, 606
577, 562, 572, 538
492, 468, 488, 445
407, 424, 387, 392
361, 371, 370, 327
348, 360, 346, 343
297, 304, 299, 270
329, 291, 275, 284
283, 282, 286, 255
278, 274, 280, 285
260, 263, 235, 251
255, 253, 246, 251
256, 223, 256, 242
241, 234, 214, 235
252, 205, 227, 203
197, 222, 233, 216
240, 249, 237, 212
234, 233, 200, 248
234, 230, 226, 207
232, 229, 236, 204
222, 229, 202, 216
209, 199, 195, 195
183, 166, 182, 186
184, 145, 167, 127
150, 154, 165, 168
184, 157, 126, 131
139, 148, 163, 113
130, 134, 133, 116
144, 117, 134, 134
129, 136, 129, 138
140, 127, 111, 126
119, 120, 121, 123
102, 127, 132, 113
123, 110, 137, 104
107, 114, 118, 116
125, 105, 122, 114
110, 99, 118, 107
111, 106, 104, 97
110, 126, 123, 127
125, 90, 124, 105
98, 90, 117, 113
89, 94, 136, 112
139, 112, 110, 96
112, 95, 107, 122
108, 113, 113, 121
106, 119, 107, 100
101, 85, 114, 118
113, 119, 106, 102
99, 115, 111, 109
115, 114, 95, 115
104, 92, 115, 105
117, 125, 105, 110
112, 97, 95, 118
120, 101, 100, 101
103, 100, 107, 103
138, 116, 104, 102
108, 94, 122, 128
109, 116, 118, 135
102, 122, 104, 108
91, 106, 123, 93
105, 110, 133, 129
99, 116, 104, 125
114, 99, 137, 120
110, 97, 113, 104
133, 111, 136, 112
117, 108, 139, 120
104, 112, 122, 114
138, 116, 120, 128
128, 119, 130, 115
122, 125, 144, 128
111, 136, 133, 133
123, 131, 136, 149
140, 143, 130, 123
141, 151, 120, 157
146, 137, 154, 180
191, 180, 171, 139
141, 184, 153, 166
146, 160, 154, 156
143, 138, 162, 168
154, 140, 166, 140
145, 148, 136, 156
141, 116, 143, 115
131, 129, 131, 126
119, 119, 127, 153
128, 106, 127, 120
131, 138, 135, 134
122, 123, 115, 118
121, 124, 116, 129
134, 128, 115, 127
137, 123, 119, 153
139, 133, 131, 110
123, 145, 119, 111
114, 124, 133, 123
108, 138, 111, 115
145, 129, 114, 121
109, 121, 115, 106
119, 94, 93, 131
127, 110, 129, 97
108, 116, 122, 118
143, 123, 114, 145
102, 134, 122, 96
106, 126, 121, 121
119, 109, 114, 139
124, 111, 113, 114
125, 125, 128, 126
115, 107, 125, 126
105, 119, 128, 117
103, 125, 133, 115
113, 121, 122, 115
140, 117, 124, 136
98, 132, 125, 145
133, 140, 141, 134
128, 139, 142, 124
135, 129, 137, 133
129, 134, 121, 137
149, 139, 137, 141
158, 171, 165, 156
180, 182, 170, 169
179, 188, 182, 167
240, 231, 228, 243
254, 270, 301, 295
341, 373, 388, 386
512, 541, 561, 683
855, 952, 999, 1112
1382, 1494, 1500, 1614
1814, 1818, 1842, 1907
1610, 1539, 1518, 1523
1183, 1105, 1022, 1060
784, 698, 704, 592
404, 402, 354, 334
297, 288, 286, 249
232, 207, 241, 209
207, 215, 168, 187
185, 154, 157, 155
169, 162, 133, 166
133, 132, 138, 153
151, 140, 146, 156
122, 148, 146, 142
141, 145, 125, 147
140, 136, 109, 127
130, 137, 147, 149
123, 131, 149, 110
129, 127, 107, 145
114, 135, 144, 134
138, 129, 115, 108
132, 113, 162, 137
127, 145, 130, 137
146, 133, 120, 116
108, 150, 134, 151
135, 140, 147, 131
145, 134, 135, 133
131, 131, 112, 134
137, 123, 127, 139
117, 132, 130, 131
115, 124, 117, 143
163, 117, 116, 127
144, 117, 111, 111
138, 126, 112, 119
113, 119, 148, 122
145, 121, 138, 139
108, 144, 126, 106
122, 112, 123, 118
115, 123, 120, 102
134, 146, 137, 142
116, 117, 124, 127
105, 130, 105, 132
124, 100, 118, 136
95, 122, 116, 112
124, 138, 129, 125
122, 128, 132, 126
95, 111, 130, 129
111, 122, 137, 121
128, 135, 106, 118
137, 127, 132, 126
114, 125, 116, 111
118, 120, 121, 140
119, 127, 136, 113
102, 124, 129, 124
131, 121, 123, 144
138, 121, 121, 136
140, 144, 145, 117
127, 129, 133, 139
148, 133, 126, 157
146, 149, 129, 153
141, 136, 161, 145
127, 153, 162, 137
165, 152, 136, 149
169, 170, 186, 172
165, 181, 183, 190
178, 201, 201, 182
166, 190, 189, 207
168, 191, 191, 210
165, 182, 159, 173
198, 167, 166, 185
176, 186, 159, 158
141, 161, 140, 159
155, 157, 151, 153
124, 149, 156, 115
140, 144, 131, 139
149, 137, 130, 137
134, 127, 129, 111
124, 112, 130, 129
135, 109, 115, 143
122, 99, 128, 134
111, 116, 97, 96
126, 103, 115, 110
111, 127, 112, 107
109, 111, 94, 129
111, 94, 103, 111
89, 118, 86, 119
123, 105, 100, 116
118, 112, 105, 114
111, 105, 109, 104
95, 119, 91, 83
87, 116, 92, 90
96, 87, 110, 89
110, 99, 95, 107
96, 118, 94, 97
108, 109, 84, 116
96, 100, 104, 107
96, 92, 105, 121
105, 100, 89, 84
113, 93, 104, 92
90, 117, 121, 86
99, 110, 95, 91
91, 91, 106, 107
92, 102, 108, 114
104, 94, 104, 107
98, 104, 93, 95
93, 120, 83, 91
83, 94, 92, 106
87, 75, 106, 85
107, 106, 89, 102
89, 121, 85, 92
81, 84, 84, 102
89, 89, 101, 81
114, 92, 89, 107
92, 81, 98, 86
97, 84, 97, 86
91, 85, 79, 79
86, 99, 95, 90
79, 80, 80, 94
84, 92, 69, 94
79, 87, 91, 101
72, 94, 90, 90
83, 84, 88, 84
79, 82, 81, 89
98, 86, 79, 86
81, 102, 102, 72
71, 68, 82, 94
75, 91, 66, 82
73, 92, 87, 95
79, 82, 73, 84
86, 74, 82, 78
73, 83, 71, 79
74, 82, 73, 68
65, 80, 100, 72
75, 70, 78, 72
79, 70, 77, 87
66, 100, 96, 79
79, 78, 60, 85
58, 86, 81, 74
90, 80, 69, 78
62, 81, 59, 79
83, 88, 62, 66
77, 76, 66, 83
75, 81, 85, 63
86, 90, 70, 74
112, 66, 74, 83
68, 84, 82, 78
91, 67, 70, 75
78, 71, 76, 82
69, 68, 74, 89
75, 69, 73, 83
72, 77, 88, 88
81, 67, 83, 73
71, 75, 61, 63
79, 91, 65, 80
83, 63, 83, 78
67, 88, 66, 79
73, 67, 77, 83
60, 69, 73, 88
70, 82, 71, 88
70, 75, 82, 69
67, 74, 94, 73
85, 74, 76, 67
75, 66, 76, 81
56, 62, 82, 77
90, 84, 80, 89
76, 73, 69, 96
67, 73, 77, 68
85, 72, 64, 64
79, 68, 75, 76
67, 74, 70, 66
69, 67, 81, 91
96, 59, 73, 73
74, 88, 71, 57
75, 62, 65, 67
73, 81, 75, 75
75, 70, 73, 73
77, 74, 62, 78
91, 79, 67, 90
77, 74, 66, 63
79, 77, 68, 85
74, 66, 79, 91
66, 85, 69, 76
79, 81, 72, 83
80, 81, 64, 76
69, 90, 61, 93
90, 72, 67, 81
77, 77, 67, 77
85, 68, 85, 64
85, 67, 74, 79
73, 70, 64, 65
74, 56, 87, 63
71, 69, 79, 71
72, 68, 76, 66
90, 88, 78, 68
77, 63, 78, 83
76, 73, 86, 70
81, 71, 74, 64
83, 81, 82, 80
67, 71, 78, 73
73, 102, 66, 80
75, 77, 66, 63
69, 74, 78, 69
75, 68, 80, 93
88, 58, 62, 77
75, 76, 81, 87
84, 88, 96, 92
72, 93, 79, 82
69, 71, 85, 68
77, 81, 84, 79
76, 80, 79, 84
81, 82, 70, 78
79, 74, 77, 78
66, 77, 87, 103
79, 84, 85, 82
69, 80, 90, 78
79, 69, 76, 76
88, 61, 69, 83
70, 72, 65, 90
80, 89, 76, 75
81, 59, 65, 73
90, 68, 74, 71
85, 82, 84, 82
92, 72, 76, 84
67, 80, 91, 83
69, 75, 80, 80
89, 72, 67, 81
67, 79, 75, 88
72, 82, 71, 91
66, 67, 70, 54
65, 80, 66, 69
87, 85, 63, 77
67, 79, 83, 67
68, 66, 81, 74
73, 77, 82, 82
62, 75, 74, 76
73, 69, 68, 70
60, 82, 69, 64
78, 75, 75, 70
64, 64, 57, 85
56, 77, 79, 70
62, 64, 74, 72
82, 65, 61, 65
67, 77, 66, 76
66, 77, 80, 68
74, 76, 81, 73
63, 64, 64, 65
72, 73, 82, 61
79, 64, 75, 74
78, 74, 65, 73
71, 85, 85, 60
60, 70, 74, 60
86, 78, 79, 62
52, 68, 80, 53
64, 69, 82, 73
62, 67, 75, 74
90, 82, 68, 77
79, 58, 56, 66
71, 77, 80, 76
73, 60, 68, 66
60, 67, 63, 57
73, 75, 76, 69
60, 63, 71, 72
79, 70, 66, 74
61, 61, 77, 67
59, 68, 60, 77
62, 72, 61, 74
60, 59, 66, 67
73, 78, 69, 71
62, 60, 85, 55
72, 80, 55, 57
74, 54, 76, 75
58, 73, 83, 69
64, 65, 54, 77
92, 77, 72, 76
60, 62, 67, 70
62, 65, 74, 87
77, 71, 68, 71
71, 75, 75, 67
68, 69, 66, 80
69, 91, 74, 67
69, 69, 73, 71
77, 77, 93, 111
88, 83, 96, 95
113, 108, 125, 124
166, 164, 187, 203
338, 359, 419, 433
536, 554, 566, 579
505, 491, 449, 431
362, 375, 325, 371
331, 350, 352, 356
300, 259, 270, 245
144, 163, 145, 125
122, 97, 98, 101
108, 111, 91, 80
76, 92, 98, 100
94, 77, 75, 87
93, 91, 68, 84
74, 86, 94, 80
77, 79, 86, 78
74, 81, 65, 58
85, 83, 84, 77
58, 63, 80, 71
76, 79, 76, 75
83, 63, 80, 76
67, 80, 77, 75
69, 75, 69, 65
90, 87, 83, 74
78, 73, 84, 89
95, 67, 81, 79
83, 82, 70, 79
66, 83, 77, 75
70, 75, 88, 74
74, 84, 83, 72
77, 60, 79, 65
69, 78, 91, 80
77, 75, 79, 62
73, 81, 91, 74
64, 61, 64, 67
73, 93, 77, 86
76, 70, 79, 76
81, 71, 67, 79
78, 69, 53, 75
76, 90, 68, 75
80, 80, 82, 87
73, 86, 84, 82
88, 81, 85, 70
87, 79, 82, 76
82, 97, 81, 78
85, 86, 66, 78
86, 75, 67, 91
74, 72, 67, 88
88, 67, 92, 66
77, 89, 80, 69
77, 82, 57, 71
70, 67, 81, 79
71, 80, 77, 61
73, 79, 89, 85
63, 72, 73, 97
64, 70, 91, 76
80, 75, 56, 69
72, 81, 76, 74
75, 97, 71, 72
74, 86, 80, 72
74, 89, 71, 83
85, 77, 89, 82
79, 82, 75, 86
96, 87, 99, 71
76, 93, 85, 99
88, 97, 65, 91
83, 81, 91, 92
91, 86, 88, 99
72, 89, 73, 80
80, 95, 92, 88
128, 103, 106, 100
104, 87, 114, 117
103, 130, 120, 110
134, 152, 136, 112
136, 147, 170, 151
154, 153, 179, 181
181, 216, 212, 210
261, 276, 253, 274
340, 358, 390, 414
450, 432, 406, 474
480, 501, 465, 499
433, 461, 443, 445
419, 417, 392, 382
381, 360, 378, 334
309, 321, 290, 253
221, 220, 223, 217
184, 209, 143, 175
136, 156, 150, 145
140, 142, 127, 140
131, 118, 114, 107
127, 110, 111, 105
99, 123, 106, 114
91, 107, 95, 104
79, 105, 87, 99
92, 115, 98, 105
101, 113, 95, 87
93, 105, 95, 88
101, 97, 90, 86
93, 100, 74, 87
79, 71, 91, 96
105, 106, 87, 103
103, 89, 106, 83
99, 90, 91, 117
103, 82, 102, 102
90, 90, 102, 119
99, 95, 81, 82
90, 85, 90, 90
92, 105, 87, 82
88, 99, 84, 90
91, 89, 93, 90
100, 73, 78, 90
106, 81, 87, 92
88, 87, 87, 104
83, 84, 101, 82
94, 88, 99, 87
101, 103, 102, 95
104, 96, 83, 85
101, 95, 112, 110
98, 94, 113, 109
123, 120, 114, 136
144, 135, 133, 166
185, 191, 193, 207
230, 234, 260, 257
226, 236, 204, 223
233, 243, 193, 188
186, 168, 169, 208
184, 196, 157, 164
172, 155, 145, 135
136, 115, 104, 109
106, 95, 94, 80
89, 90, 104, 73
66, 85, 91, 73
88, 77, 90, 84
77, 67, 76, 82
76, 72, 67, 82
83, 88, 92, 73
79, 67, 71, 64
66, 78, 75, 71
66, 69, 77, 85
72, 69, 86, 66
73, 61, 54, 73
60, 85, 70, 64
77, 72, 75, 76
69, 50, 77, 58
77, 83, 74, 76
59, 76, 57, 67
68, 66, 76, 78
58, 57, 87, 77
74, 71, 58, 65
76, 74, 67, 70
74, 68, 71, 72
81, 54, 74, 65
74, 81, 59, 83
60, 73, 68, 80
67, 66, 67, 57
60, 67, 64, 83
66, 61, 61, 61
83, 81, 53, 77
80, 63, 75, 47
53, 74, 72, 62
66, 56, 62, 63
65, 74, 60, 72
57, 68, 67, 64
69, 69, 71, 57
63, 62, 67, 74
66, 68, 67, 67
60, 66, 60, 59
54, 70, 76, 63
49, 66, 70, 70
75, 69, 57, 62
57, 53, 61, 74
66, 91, 64, 70
72, 68, 53, 58
59, 60, 44, 55
71, 71, 63, 69
61, 64, 72, 56
79, 70, 64, 59
66, 59, 80, 56
75, 64, 62, 61
66, 60, 61, 70
65, 62, 65, 61
76, 73, 71, 56
55, 58, 51, 57
86, 44, 68, 88
56, 62, 74, 61
54, 62, 68, 61
62, 59, 54, 66
49, 55, 67, 71
46, 64, 64, 65
64, 70, 70, 70
69, 57, 71, 84
77, 73, 63, 94
63, 76, 65, 67
55, 80, 76, 60
59, 69, 73, 55
86, 59, 68, 81
62, 69, 75, 86
66, 75, 74, 61
83, 70, 81, 75
72, 58, 77, 81
78, 76, 76, 68
55, 76, 89, 71
78, 73, 71, 62
87, 74, 75, 74
61, 86, 99, 83
82, 80, 75, 85
75, 82, 72, 73
84, 84, 68, 82
83, 74, 67, 87
97, 79, 85, 83
80, 76, 73, 80
103, 77, 88, 81
72, 84, 90, 89
76, 75, 72, 86
84, 82, 71, 78
91, 62, 75, 68
67, 66, 75, 72
61, 91, 72, 73
61, 57, 68, 77
84, 72, 82, 59
61, 69, 61, 58
68, 74, 73, 74
57, 57, 69, 78
72, 74, 71, 56
85, 56, 59, 75
58, 55, 78, 78
58, 73, 73, 78
57, 77, 63, 62
70, 63, 65, 71
63, 65, 51, 64
60, 67, 73, 71
59, 72, 63, 62
60, 61, 47, 64
42, 61, 52, 59
77, 57, 49, 54
53, 69, 62, 67
73, 62, 62, 52
67, 58, 61, 69
70, 72, 66, 70
64, 65, 65, 57
71, 56, 70, 56
67, 74, 70, 59
51, 55, 57, 57
72, 62, 73, 54
76, 60, 66, 68
70, 55, 69, 68
65, 63, 65, 61
78, 58, 61, 77
73, 72, 68, 58
60, 65, 67, 58
64, 53, 67, 61
52, 64, 47, 65
51, 59, 70, 61
64, 74, 62, 57
72, 58, 56, 65
79, 60, 60, 60
53, 65, 60, 71
60, 67, 56, 52
56, 76, 53, 55
67, 57, 49, 68
61, 77, 46, 87
66, 63, 65, 55
66, 79, 58, 63
57, 54, 51, 75
64, 74, 59, 63
79, 63, 62, 46
69, 56, 59, 65
66, 79, 73, 60
74, 68, 67, 62
69, 64, 55, 62
61, 73, 65, 70
57, 67, 72, 62
75, 47, 73, 58
62, 63, 62, 80
71, 75, 67, 74
69, 66, 63, 74
74, 63, 87, 71
58, 56, 69, 59
76, 64, 52, 62
59, 77, 71, 70
62, 75, 48, 77
88, 71, 70, 64
69, 73, 82, 70
56, 78, 60, 76
75, 72, 56, 62
73, 61, 68, 67
59, 75, 67, 58
69, 65, 71, 83
71, 68, 74, 67
79, 74, 76, 73
90, 78, 75, 83
74, 68, 72, 71
70, 84, 76, 78
92, 77, 86, 69
82, 86, 77, 82
81, 83, 77, 84
81, 82, 84, 88
92, 99, 67, 92
108, 85, 88, 121
116, 103, 97, 107
107, 126, 116, 105
133, 126, 116, 136
123, 136, 112, 127
180, 181, 146, 150
170, 177, 190, 178
187, 192, 198, 193
231, 236, 226, 231
226, 270, 237, 252
235, 276, 251, 255
253, 258, 234, 238
195, 214, 214, 231
221, 234, 193, 222
179, 200, 182, 190
197, 202, 198, 178
174, 158, 159, 168
148, 138, 137, 138
126, 135, 129, 128
119, 112, 91, 116
105, 113, 105, 93
118, 98, 103, 98
95, 95, 99, 86
91, 92, 91, 89
81, 99, 83, 89
56, 82, 76, 80
79, 74, 93, 102
80, 90, 87, 84
81, 65, 77, 64
68, 64, 88, 82
85, 79, 74, 75
81, 73, 90, 98
82, 71, 74, 62
76, 70, 82, 67
68, 64, 74, 78
84, 62, 64, 71
85, 74, 67, 64
82, 79, 75, 70
70, 77, 71, 78
82, 65, 74, 59
64, 75, 74, 60
63, 62, 62, 77
70, 66, 71, 59
62, 75, 76, 57
54, 83, 61, 68
63, 69, 80, 55
74, 56, 65, 68
67, 75, 72, 75
57, 75, 55, 72
63, 60, 78, 74
69, 56, 70, 72
83, 81, 75, 65
57, 76, 74, 62
63, 61, 73, 58
64, 69, 51, 71
78, 62, 61, 66
82, 73, 71, 59
88, 71, 79, 62
74, 68, 65, 79
67, 77, 77, 70
66, 65, 71, 72
78, 64, 54, 80
62, 68, 74, 70
62, 77, 61, 74
73, 57, 77, 86
60, 77, 54, 67
78, 70, 66, 71
69, 75, 64, 86
75, 65, 72, 86
72, 50, 67, 77
68, 71, 70, 83
83, 73, 67, 74
70, 59, 69, 62
81, 61, 50, 69
64, 75, 61, 82
62, 62, 74, 60
78, 64, 77, 61
74, 53, 66, 75
61, 84, 67, 68
66, 61, 68, 53
54, 75, 64, 72
48, 69, 70, 63
64, 49, 79, 51
65, 71, 56, 79
59, 59, 78, 74
62, 59, 62, 64
59, 63, 57, 58
44, 58, 86, 69
64, 68, 72, 72
71, 75, 78, 62
69, 76, 59, 76
81, 61, 55, 78
63, 54, 58, 56
64, 66, 65, 88
57, 67, 60, 76
61, 64, 75, 79
54, 69, 78, 68
68, 74, 63, 64
79, 76, 61, 73
59, 68, 69, 70
73, 62, 60, 72
65, 65, 79, 57
78, 58, 66, 65
65, 77, 61, 61
74, 73, 65, 60
68, 54, 74, 82
46, 62, 70, 69
52, 69, 65, 53
80, 79, 67, 61
55, 79, 80, 60
65, 77, 59, 63
69, 69, 64, 68
84, 72, 61, 66
61, 62, 67, 73
81, 58, 75, 57
65, 60, 66, 55
66, 70, 71, 72
74, 51, 56, 67
59, 57, 64, 59
67, 56, 70, 61
69, 72, 53, 62
55, 61, 74, 69
74, 65, 62, 72
68, 57, 66, 70
70, 72, 71, 69
53, 69, 61, 52
66, 68, 59, 78
60, 57, 56, 76
85, 63, 59, 74
60, 71, 69, 71
56, 66, 54, 54
67, 70, 56, 70
54, 65, 74, 45
71, 62, 60, 58
60, 56, 66, 63
58, 67, 53, 61
69, 70, 63, 69
53, 74, 59, 59
64, 69, 61, 50
66, 73, 70, 63
79, 75, 63, 51
76, 54, 81, 67
64, 68, 59, 60
61, 52, 55, 63
66, 74, 72, 67
81, 78, 62, 76
69, 67, 50, 58
69, 64, 65, 85
71, 79, 67, 76
70, 70, 75, 67
68, 64, 55, 58
68, 59, 62, 64
68, 52, 84, 74
63, 75, 65, 62
58, 76, 64, 55
62, 82, 67, 70
54, 69, 80, 53
67, 82, 61, 68
67, 75, 57, 60
65, 63, 68, 66
65, 73, 61, 65
69, 65, 75, 78
76, 69, 89, 76
81, 69, 69, 63
68, 68, 72, 67
67, 75, 59, 79
76, 78, 88, 85
60, 71, 87, 71
77, 76, 54, 61
88, 84, 62, 64
83, 63, 89, 85
68, 79, 66, 59
67, 65, 60, 73
73, 58, 70, 65
61, 88, 77, 81
78, 69, 72, 68
72, 71, 70, 73
91, 83, 67, 64
60, 64, 75, 59
64, 74, 64, 70
57, 63, 81, 68
59, 85, 74, 64
80, 82, 66, 79
65, 77, 72, 85
80, 90, 75, 78
80, 87, 83, 80
71, 68, 84, 72
66, 67, 79, 78
86, 72, 59, 76
91, 71, 82, 74
79, 84, 77, 73
61, 69, 71, 61
89, 55, 71, 79
83, 72, 65, 79
81, 67, 82, 80
68, 71, 60, 82
87, 88, 81, 97
72, 63, 70, 68
63, 63, 75, 64
69, 59, 64, 75
72, 46, 88, 74
76, 95, 71, 72
82, 75, 78, 74
79, 80, 83, 76
71, 67, 71, 74
67, 81, 83, 83
73, 78, 90, 90
77, 87, 71, 72
84, 73, 68, 78
72, 92, 53, 63
92, 73, 81, 71
75, 81, 68, 91
83, 84, 90, 64
80, 71, 94, 70
71, 64, 84, 83
89, 76, 77, 85
79, 85, 61, 63
77, 68, 74, 84
103, 73, 66, 81
74, 69, 80, 75
91, 69, 54, 73
91, 66, 89, 91
90, 79, 79, 78
71, 80, 67, 86
68, 73, 72, 88
70, 79, 82, 65
90, 80, 73, 77
80, 69, 92, 87
74, 94, 70, 98
76, 76, 91, 71
75, 88, 75, 81
79, 62, 73, 80
75, 78, 91, 73
94, 77, 76, 69
82, 74, 75, 68
68, 79, 90, 77
77, 81, 88, 79
74
*END

*EOF